{"resourceType":"Bundle","id":"tests-Patient-example-UPPARF-2-bundle","type":"transaction","entry":[{"resource":{"resourceType":"Condition","id":"Condition-appendicitis-example","meta":{"profile":["http://hl7.org/fhir/us/core/StructureDefinition/us-core-condition","http://hl7.org/fhir/us/qicore/StructureDefinition/qicore-condition"]},"clinicalStatus":{"coding":[{"system":"http://terminology.hl7.org/CodeSystem/condition-clinical","code":"active"}]},"verificationStatus":{"coding":[{"system":"http://terminology.hl7.org/CodeSystem/condition-ver-status","code":"confirmed"}]},"category":[{"coding":[{"system":"http://terminology.hl7.org/CodeSystem/condition-category","code":"encounter-diagnosis","display":"Encounter Diagnosis"}]}],"severity":{"coding":[{"system":"http://snomed.info/sct","code":"24484000","display":"Severe (severity modifier)"}]},"code":{"coding":[{"system":"http://snomed.info/sct","code":"74400008","display":"Appendicitis (disorder)"}],"text":"Appendicitis"},"bodySite":[{"coding":[{"system":"http://snomed.info/sct","code":"66754008","display":"Appendix structure"}]}],"subject":{"reference":"Patient/Patient-example-UPPARF-2"},"onsetDateTime":"2012-05-24T00:00:00+00:00","recordedDate":"2012-05-24T00:00:00+00:00"},"request":{"method":"PUT","url":"Condition/Condition-appendicitis-example"}},{"resource":{"resourceType":"Medication","id":"Medication-lisinopril-example","meta":{"profile":["http://hl7.org/fhir/us/core/StructureDefinition/us-core-medication"]},"code":{"coding":[{"system":"http://www.nlm.nih.gov/research/umls/rxnorm","code":"206765","display":"Lisinopril 10 MG Oral Tablet [Prinivil]"}],"text":"lisinopril oral 10 mg"}},"request":{"method":"PUT","url":"Medication/Medication-lisinopril-example"}},{"resource":{"resourceType":"Condition","id":"Condition-example-diabetes","meta":{"profile":["http://hl7.org/fhir/us/core/StructureDefinition/us-core-condition"]},"clinicalStatus":{"coding":[{"system":"http://terminology.hl7.org/CodeSystem/condition-clinical","code":"active"}]},"verificationStatus":{"coding":[{"system":"http://terminology.hl7.org/CodeSystem/condition-ver-status","code":"confirmed"}]},"category":[{"coding":[{"system":"http://terminology.hl7.org/CodeSystem/condition-category","code":"encounter-diagnosis","display":"Encounter Diagnosis"}]}],"code":{"coding":[{"system":"http://hl7.org/fhir/sid/icd-10-cm","code":"E11.618","display":"Type 2 diabetes mellitus with other diabetic arthropathy"}],"text":"Type 2 Diabetes"},"subject":{"reference":"Patient/Patient-example-UPPARF-2"},"onsetDateTime":"2012-06-24T00:00:00+00:00","recordedDate":"2012-06-24T00:00:00+00:00"},"request":{"method":"PUT","url":"Condition/Condition-example-diabetes"}},{"resource":{"resourceType":"Coverage","id":"Coverage-example","meta":{"profile":["http://hl7.org/fhir/us/qicore/StructureDefinition/qicore-coverage"]},"identifier":[{"type":{"coding":[{"system":"http://terminology.hl7.org/CodeSystem/v2-0203","code":"MB"}]},"value":"member-id-from-identifier-slice-Patient-example-UPPARF-2"},{"type":{"coding":[{"system":"http://terminology.hl7.org/CodeSystem/v2-0203","code":"SN"}]},"value":"policy-number-from-identifier-slice-Patient-example-UPPARF-2"}],"status":"active","type":{"coding":[{"system":"urn:oid:2.16.840.1.113883.3.221.5","code":"59","display":"Other Private Insurance"}]},"policyHolder":{"reference":"Patient/Patient-example-UPPARF-2"},"subscriber":{"reference":"Patient/Patient-example-UPPARF-2"},"subscriberId":"Patient-example-UPPARF-2","beneficiary":{"reference":"Patient/Patient-example-UPPARF-2"},"dependent":"0","relationship":{"coding":[{"code":"self"}]},"period":{"start":"2011-05-23","end":"2026-05-23"},"payor":[{"reference":"Organization/Organization-example"}]},"request":{"method":"PUT","url":"Coverage/Coverage-example"}},{"resource":{"resourceType":"Organization","id":"Organization-example","meta":{"profile":["http://hl7.org/fhir/us/core/StructureDefinition/us-core-organization"]},"identifier":[{"system":"http://hl7.org.fhir/sid/us-npi","value":"1144221847"}],"active":true,"type":[{"coding":[{"system":"http://terminology.hl7.org/CodeSystem/organization-type","code":"prov","display":"Healthcare Provider"}]}],"name":"Acme Labs","telecom":[{"system":"phone","value":"(+1) 734-677-7777"},{"system":"email","value":"hq@acme.org"}],"address":[{"line":["3300 Washtenaw Avenue, Suite 227"],"city":"Amherst","state":"MA","postalCode":"01002","country":"USA"}]},"request":{"method":"PUT","url":"Organization/Organization-example"}},{"resource":{"resourceType":"Patient","id":"Patient-example-UPPARF-2","meta":{"profile":["http://hl7.org/fhir/us/core/StructureDefinition/us-core-patient"]},"identifier":[{"use":"usual","type":{"coding":[{"system":"http://terminology.hl7.org/CodeSystem/v2-0203","code":"MR","display":"Medical Record Number"}]},"system":"urn:oid:1.2.36.146.595.217.0.1","value":"12345678","period":{"start":"2002-05-06"},"assigner":{"display":"Acme Healthcare"}}],"active":true,"name":[{"family":"du Marché","_family":{"extension":[{"url":"http://hl7.org/fhir/StructureDefinition/humanname-own-prefix","valueString":"VV"}]},"given":["Bénédicte"]}],"telecom":[{"system":"phone","value":"+33 (237) 998327"},{"system":"email","value":"example.patient.two@gmail.com"}],"gender":"female","birthDate":"1936-12-25","_birthDate":{"extension":[{"url":"http://hl7.org/fhir/StructureDefinition/patient-birthTime","valueDateTime":"1936-12-25T14:35:45-05:00"}]},"deceasedBoolean":false,"address":[{"use":"home","type":"both","line":["534 Erewhon St"],"city":"PleasantVille","district":"Rainbow","state":"VT","postalCode":"3999","period":{"start":"1974-12-25"}}],"maritalStatus":{"coding":[{"system":"http://terminology.hl7.org/CodeSystem/v3-MaritalStatus","code":"M"}]}},"request":{"method":"PUT","url":"Patient/Patient-example-UPPARF-2"}},{"resource":{"resourceType":"PractitionerRole","id":"PractitionerRole-example","meta":{"profile":["http://hl7.org/fhir/us/core/StructureDefinition/us-core-practitionerrole"]},"identifier":[{"system":"http://www.acme.org/practitionerroles","value":"31"}],"active":true,"period":{"start":"1995"},"practitioner":{"reference":"Practitioner/Practitioner-example","display":"Dr Kathy Fielding"},"organization":{"reference":"Organization/Organization-example"},"code":[{"coding":[{"system":"http://nucc.org/provider-taxonomy","code":"261QP2300X","display":"Primary Care"}]}],"specialty":[{"coding":[{"system":"http://nucc.org/provider-taxonomy","code":"1223G0001X","display":"General Practice"}]}],"telecom":[{"system":"phone","value":"(55) 123 645"}]},"request":{"method":"PUT","url":"PractitionerRole/PractitionerRole-example"}},{"resource":{"resourceType":"Practitioner","id":"Practitioner-example","meta":{"profile":["http://hl7.org/fhir/us/core/StructureDefinition/us-core-practitioner"]},"identifier":[{"system":"http://hl7.org.fhir/sid/us-npi","value":"1245319599"},{"system":"urn:oid:2.16.840.1.113883.4.4","value":"1tg1556"}],"name":[{"family":"Kathy","given":["Fielding"],"prefix":["Dr"]}],"telecom":[{"system":"phone","value":"(55) 123 645","use":"mobile"},{"system":"pager","value":"111111"},{"system":"fax","value":"(55) 123 654 234"},{"system":"email","value":"practitioner.example@gmail.com"}],"address":[{"use":"work","line":["1080 FIRST COLONIAL RD"],"city":"Virginia Beach","state":"VA","postalCode":"21454-2406"}]},"request":{"method":"PUT","url":"Practitioner/Practitioner-example"}},{"resource":{"resourceType":"MedicationRequest","id":"MedicationRequest-tylenol-example","meta":{"profile":["http://hl7.org/fhir/us/core/StructureDefinition/us-core-medicationrequest"]},"identifier":[{"use":"official","system":"http://acme.org/prescriptions","value":"12345689"}],"status":"active","intent":"order","priority":"routine","reportedBoolean":true,"medicationCodeableConcept":{"coding":[{"system":"http://www.nlm.nih.gov/research/umls/rxnorm","code":"1187314","display":"Tylenol PM Pill"}],"text":"Tylenol PM Pill"},"subject":{"reference":"Patient/Patient-example-UPPARF-2"},"authoredOn":"2019-06-24","requester":{"reference":"Patient/Patient-example-UPPARF-2"},"dosageInstruction":[{"text":"Takes 1-2 tablets once daily at bedtime as needed for restless legs"}]},"request":{"method":"PUT","url":"MedicationRequest/MedicationRequest-tylenol-example"}},{"resource":{"resourceType":"MedicationRequest","id":"MedicationRequest-lisinopril-example","meta":{"profile":["http://hl7.org/fhir/us/core/StructureDefinition/us-core-medicationrequest"]},"status":"active","intent":"order","priority":"routine","reportedBoolean":true,"medicationReference":{"reference":"Medication/Medication-lisinopril-example","display":"Lisinopril 10 MG Oral Tablet [Prinivil]"},"subject":{"reference":"Patient/Patient-example-UPPARF-2"},"authoredOn":"2021-06-24","requester":{"reference":"Practitioner/Practitioner-example"},"dosageInstruction":[{"timing":{"repeat":{"frequency":1,"period":1,"periodUnit":"d"}},"site":{"coding":[{"system":"http://snomed.info/sct","code":"447964005"}]},"route":{"coding":[{"system":"http://snomed.info/sct","code":"394899003","display":"oral administration of treatment"}]},"doseAndRate":[{"type":{"coding":[{"system":"http://terminology.hl7.org/CodeSystem/dose-rate-type","code":"ordered","display":"Ordered"}]},"doseQuantity":{"value":10,"unit":"mg","system":"http://unitsofmeasure.org","code":"mg"}}]}],"dispenseRequest":{"numberOfRepeatsAllowed":1,"quantity":{"value":10,"unit":"mg","system":"http://unitsofmeasure.org","code":"mg"},"expectedSupplyDuration":{"value":15,"unit":"days","system":"http://unitsofmeasure.org","code":"d"}}},"request":{"method":"PUT","url":"MedicationRequest/MedicationRequest-lisinopril-example"}}]}