{"resourceType":"Bundle","id":"tests-Patient-example-UPPARF-1-bundle","type":"transaction","entry":[{"resource":{"resourceType":"Organization","id":"Organization-example","meta":{"profile":["http://hl7.org/fhir/us/qicore/StructureDefinition/qicore-organization"]},"identifier":[{"system":"http://hl7.org"}],"active":true,"type":[{"coding":[{"system":"http://terminology.hl7.org/CodeSystem/organization-type","code":"team","display":"Organizational team"}]}],"name":"Health Level Seven International","telecom":[{"system":"phone","value":"(+1) 734-677-7777"},{"system":"fax","value":"(+1) 734-677-6622"},{"system":"email","value":"hq@HL7.org"}],"address":[{"line":["3300 Washtenaw Avenue, Suite 227"],"city":"Ann Arbor","state":"MI","postalCode":"48104","country":"USA"}]},"request":{"method":"PUT","url":"Organization/Organization-example"}},{"resource":{"resourceType":"MedicationRequest","id":"MedicationRequest-2-nizatidine","meta":{"profile":["http://hl7.org/fhir/us/core/StructureDefinition/us-core-medicationrequest"]},"status":"active","intent":"order","priority":"urgent","medicationReference":{"reference":"Medication/Medication-nizatidine","display":"Nizatidine 15 MG/ML Oral Solution [Axid]"},"subject":{"reference":"Patient/Patient-example-UPPARF-1"},"authoredOn":"2023-04-05T00:00:00.000-00:00","requester":{"reference":"Practitioner/Practitioner-1"},"dosageInstruction":[{"timing":{"repeat":{"frequency":3,"period":1,"periodUnit":"d"}},"site":{"coding":[{"system":"http://snomed.info/sct","code":"447964005"}]},"route":{"coding":[{"system":"http://snomed.info/sct","code":"394899003","display":"oral administration of treatment"}]},"doseAndRate":[{"type":{"coding":[{"system":"http://terminology.hl7.org/CodeSystem/dose-rate-type","code":"ordered","display":"Ordered"}]},"doseQuantity":{"value":5,"unit":"ml","system":"http://unitsofmeasure.org","code":"ml"}}]}],"dispenseRequest":{"numberOfRepeatsAllowed":1,"quantity":{"value":480,"unit":"mL","system":"http://unitsofmeasure.org","code":"mL"},"expectedSupplyDuration":{"value":30,"unit":"days","system":"http://unitsofmeasure.org","code":"d"}},"priorPrescription":{"reference":"MedicationRequest/MedicationRequest-1-nizatidine"}},"request":{"method":"PUT","url":"MedicationRequest/MedicationRequest-2-nizatidine"}},{"resource":{"resourceType":"Medication","id":"Medication-nizatidine","meta":{"profile":["http://hl7.org/fhir/us/core/StructureDefinition/us-core-medication"]},"code":{"coding":[{"system":"http://www.nlm.nih.gov/research/umls/rxnorm","code":"582620","display":"Nizatidine 15 MG/ML Oral Solution [Axid]"}],"text":"Nizatidine 15 MG/ML Oral Solution [Axid]"}},"request":{"method":"PUT","url":"Medication/Medication-nizatidine"}},{"resource":{"resourceType":"Condition","id":"Condition-example-hypothyroidism","meta":{"profile":["http://hl7.org/fhir/us/core/StructureDefinition/us-core-condition","http://hl7.org/fhir/us/qicore/StructureDefinition/qicore-condition"]},"clinicalStatus":{"coding":[{"system":"http://terminology.hl7.org/CodeSystem/condition-clinical","code":"active"}]},"verificationStatus":{"coding":[{"system":"http://terminology.hl7.org/CodeSystem/condition-ver-status","code":"confirmed"}]},"category":[{"coding":[{"system":"http://terminology.hl7.org/CodeSystem/condition-category","code":"problem-list-item","display":"Problem List Item"}]}],"code":{"coding":[{"system":"http://snomed.info/sct","code":"2917005","display":"Transient hypothyroidism"}],"text":"Transient Hypothyroidism"},"subject":{"reference":"Patient/Patient-example-UPPARF-1"},"onsetDateTime":"2012-05-24T00:00:00+00:00","recordedDate":"2012-05-24T00:00:00+00:00"},"request":{"method":"PUT","url":"Condition/Condition-example-hypothyroidism"}},{"resource":{"resourceType":"Practitioner","id":"Practitioner-1","meta":{"profile":["http://hl7.org/fhir/us/core/StructureDefinition/us-core-practitioner"]},"identifier":[{"system":"http://hl7.org.fhir/sid/us-npi","value":"9941339108"},{"system":"urn:oid:2.16.840.1.113883.4.4","value":"1tg1556"},{"system":"http://www.acme.org/practitioners","value":"25456"}],"name":[{"use":"official","family":"Voigt","given":["Pieter"],"suffix":["MD"]}],"telecom":[{"system":"phone","value":"(03) 123 645","use":"mobile"},{"system":"pager","value":"234325"},{"system":"fax","value":"(03) 123 654 234"},{"system":"email","value":"example.practitioner@gmail.com"}],"address":[{"use":"home","line":["1003 Healthcare Drive"],"city":"Amherst","state":"MA","postalCode":"01002"}]},"request":{"method":"PUT","url":"Practitioner/Practitioner-1"}},{"resource":{"resourceType":"Patient","id":"Patient-example-UPPARF-1","meta":{"profile":["http://hl7.org/fhir/us/core/StructureDefinition/us-core-patient","http://hl7.org/fhir/us/qicore/StructureDefinition/qicore-patient"]},"extension":[{"url":"http://hl7.org/fhir/us/core/StructureDefinition/us-core-birthsex","valueCode":"M"}],"identifier":[{"use":"usual","type":{"coding":[{"system":"http://terminology.hl7.org/CodeSystem/v2-0203","code":"MR"}]},"system":"urn:oid:1.2.36.146.595.217.0.1","value":"12345","period":{"start":"2001-05-06"},"assigner":{"display":"Acme Healthcare"}}],"active":true,"name":[{"use":"official","family":"Windsor","given":["Peter","James"]}],"telecom":[{"system":"phone","value":"(03) 5555 6473","use":"work","rank":1},{"system":"phone","value":"(03) 3410 5613","use":"mobile","rank":2},{"system":"phone","value":"(03) 5555 8834","use":"old","period":{"end":"2014"}},{"system":"email","value":"example.patient@gmail.com"}],"gender":"male","birthDate":"1984-10-25","_birthDate":{"extension":[{"url":"http://hl7.org/fhir/StructureDefinition/patient-birthTime","valueDateTime":"1974-12-25T14:35:45-05:00"}]},"deceasedBoolean":false,"address":[{"use":"home","type":"both","text":"534 Erewhon St PeasantVille, Utah 84414","line":["534 Erewhon St"],"city":"PleasantVille","district":"Rainbow","state":"UT","postalCode":"84414","period":{"start":"1974-12-25"}}],"managingOrganization":{"reference":"Organization/Organization-example"}},"request":{"method":"PUT","url":"Patient/Patient-example-UPPARF-1"}},{"resource":{"resourceType":"Coverage","id":"Coverage-example-1","meta":{"profile":["http://hl7.org/fhir/us/qicore/StructureDefinition/qicore-coverage"]},"identifier":[{"type":{"coding":[{"system":"http://terminology.hl7.org/CodeSystem/v2-0203","code":"MB"}]},"value":"member-id-from-identifier-slice-Patient-example-UPPARF-1"},{"type":{"coding":[{"system":"http://terminology.hl7.org/CodeSystem/v2-0203","code":"SN"}]},"value":"policy-number-from-identifier-slice-Patient-example-UPPARF-1"}],"status":"active","type":{"coding":[{"system":"urn:oid:2.16.840.1.113883.3.221.5","code":"59","display":"Other Private Insurance"}]},"policyHolder":{"reference":"Patient/Patient-example-UPPARF-1"},"subscriber":{"reference":"Patient/Patient-example-UPPARF-1"},"subscriberId":"Patient-example-UPPARF-1","beneficiary":{"reference":"Patient/Patient-example-UPPARF-1"},"dependent":"0","relationship":{"coding":[{"code":"self"}]},"period":{"start":"2011-05-23","end":"2026-05-23"},"payor":[{"reference":"Organization/Organization-example"}],"order":9},"request":{"method":"PUT","url":"Coverage/Coverage-example-1"}},{"resource":{"resourceType":"MedicationRequest","id":"MedicationRequest-1-nizatidine","meta":{"profile":["http://hl7.org/fhir/us/core/StructureDefinition/us-core-medicationrequest"]},"status":"active","intent":"order","priority":"routine","medicationReference":{"reference":"Medication/Medication-nizatidine","display":"Nizatidine 15 MG/ML Oral Solution [Axid]"},"subject":{"reference":"Patient/Patient-example-UPPARF-1"},"authoredOn":"2020-04-05T00:00:00.000-00:00","requester":{"reference":"Practitioner/Practitioner-1"},"dosageInstruction":[{"timing":{"repeat":{"frequency":3,"period":1,"periodUnit":"d"}},"site":{"coding":[{"system":"http://snomed.info/sct","code":"447964005"}]},"route":{"coding":[{"system":"http://snomed.info/sct","code":"394899003","display":"oral administration of treatment"}]},"doseAndRate":[{"type":{"coding":[{"system":"http://terminology.hl7.org/CodeSystem/dose-rate-type","code":"ordered","display":"Ordered"}]},"doseQuantity":{"value":5,"unit":"ml","system":"http://unitsofmeasure.org","code":"ml"}}]}],"dispenseRequest":{"numberOfRepeatsAllowed":1,"quantity":{"value":480,"unit":"mL","system":"http://unitsofmeasure.org","code":"mL"},"expectedSupplyDuration":{"value":30,"unit":"days","system":"http://unitsofmeasure.org","code":"d"}}},"request":{"method":"PUT","url":"MedicationRequest/MedicationRequest-1-nizatidine"}}]}