{"resourceType":"Bundle","id":"tests-example-bundle","type":"transaction","entry":[{"resource":{"resourceType":"Coverage","id":"example","meta":{"profile":["http://hl7.org/fhir/us/qicore/StructureDefinition/qicore-coverage"]},"identifier":[{"type":{"coding":[{"system":"http://terminology.hl7.org/CodeSystem/v2-0203","code":"MB"}]},"value":"member-id-from-identifier-slice-example-patient"},{"type":{"coding":[{"system":"http://terminology.hl7.org/CodeSystem/v2-0203","code":"SN"}]},"value":"policy-number-from-identifier-slice-example-continued-therapy-patient"}],"status":"active","type":{"coding":[{"system":"urn:oid:2.16.840.1.113883.3.221.5","code":"59","display":"Other Private Insurance"}]},"policyHolder":{"reference":"Patient/example"},"subscriber":{"reference":"Patient/example"},"subscriberId":"subscriber-id-example","beneficiary":{"reference":"Patient/example"},"dependent":"0","relationship":{"coding":[{"code":"self"}]},"period":{"start":"2011-05-23","end":"2026-05-23"},"payor":[{"reference":"Organization/example"}],"order":9},"request":{"method":"PUT","url":"Coverage/example"}},{"resource":{"resourceType":"DiagnosticReport","id":"urinalysis-xy","meta":{"versionId":"209563","lastUpdated":"2016-04-19T17:28:11.308+00:00","profile":["http://hl7.org/fhir/us/core/StructureDefinition/us-core-diagnosticreport-lab"]},"text":{"status":"generated","div":"<div xmlns=\"http://www.w3.org/1999/xhtml\"><p><b>Generated Narrative with Details</b></p><p><b>id</b>: urinalysis</p><p><b>meta</b>: </p><p><b>status</b>: final</p><p><b>category</b>: Laboratory <span style=\"background: LightGoldenRodYellow\">(Details : {http://terminology.hl7.org/CodeSystem/v2-0074 code 'LAB' = 'Laboratory', given as 'Laboratory'})</span></p><p><b>code</b>: Complete Urinalysis <span style=\"background: LightGoldenRodYellow\">(Details : {LOINC code '24356-8' = 'Urinalysis complete panel - Urine', given as 'Urinalysis complete panel - Urine'})</span></p><p><b>subject</b>: <a href=\"https://hl7.org/fhir/us/core/Patient-example.html\">Amy Shaw. Generated Summary: id: example; Medical Record Number = 1032702 (USUAL); active; Amy V. Shaw ; ph: 555-555-5555(HOME), amy.shaw@example.com; gender: female; birthDate: 2007-02-20</a></p><p><b>effective</b>: 05/07/2005 12:00:00 AM</p><p><b>issued</b>: 06/07/2005 10:45:33 AM</p><p><b>performer</b>: <a href=\"Organization-acme-lab.html\">Acme Laboratory, Inc. Generated Summary: id: acme-lab; 1144221847, 12D4567890; active; <span title=\"Codes: {http://terminology.hl7.org/CodeSystem/organization-type prov}\">Healthcare Provider</span>; name: Acme Labs; ph: (+1) 734-677-7777, hq@acme.org</a></p><p><b>result</b>: </p><ul><li><a href=\"Observation-urine-color.html\">COLOR=Yellow. Generated Summary: id: urine-color; <span title=\"Codes: {http://terminology.hl7.org/CodeSystem/observation-category laboratory}\">Laboratory</span>; <span title=\"Codes: {http://loinc.org 5778-6}\">COLOR</span>; effective: 05/07/2005 12:00:00 AM; <span title=\"Codes: {http://snomed.inbnm,fo/sct 371244009}\">Yellow</span></a></li><li><a href=\"Observation-urine-clarity.html\">APPEARANCE=Hazy. Generated Summary: id: urine-clarity; <span title=\"Codes: {http://terminology.hl7.org/CodeSystem/observation-category laboratory}\">Laboratory</span>; <span title=\"Codes: {http://loinc.org 32167-9}\">APPEARANCE</span>; effective: 05/07/2005 12:00:00 AM; <span title=\"Codes: {http://snomed.info/sct 81858005}\">Hazy</span></a></li><li><a href=\"Observation-urine-glucose.html\">GLUCOSE=Negative. Generated Summary: id: urine-glucose; <span title=\"Codes: {http://terminology.hl7.org/CodeSystem/observation-category laboratory}\">Laboratory</span>; <span title=\"Codes: {http://loinc.org 25428-4}\">GLUCOSE</span>; effective: 05/07/2005 12:00:00 AM; <span title=\"Codes: {http://snomed.info/sct 260385009}\">Negative</span></a></li><li><a href=\"Observation-urine-bilirubin.html\">BILIRUBIN=Negative. Generated Summary: id: urine-bilirubin; <span title=\"Codes: {http://terminology.hl7.org/CodeSystem/observation-category laboratory}\">Laboratory</span>; <span title=\"Codes: {http://loinc.org 5770-3}\">BILIRUBIN</span>; effective: 05/07/2005 12:00:00 AM; <span title=\"Codes: {http://snomed.info/sct 260385009}\">Negative</span></a></li><li><a href=\"Observation-urine-ketone.html\">KETONE=Negative. Generated Summary: id: urine-ketone; <span title=\"Codes: {http://terminology.hl7.org/CodeSystem/observation-category laboratory}\">Laboratory</span>; <span title=\"Codes: {http://loinc.org 2514-8}\">KETONE</span>; effective: 05/07/2005 12:00:00 AM; <span title=\"Codes: {http://snomed.info/sct 260385009}\">Negative</span></a></li><li><a href=\"Observation-usg.html\">SPEC GRAV=1.017. Generated Summary: id: usg; <span title=\"Codes: {http://terminology.hl7.org/CodeSystem/observation-category laboratory}\">Laboratory</span>; <span title=\"Codes: {http://loinc.org 5811-5}\">SPEC GRAV</span>; effective: 05/07/2005 12:00:00 AM; 1.017 {urine specific gravity}</a></li><li><a href=\"Observation-urine-ph.html\">PH=6 (pH). Generated Summary: id: urine-ph; <span title=\"Codes: {http://terminology.hl7.org/CodeSystem/observation-category laboratory}\">Laboratory</span>; <span title=\"Codes: {http://loinc.org 5803-2}\">PH</span>; effective: 05/07/2005 12:00:00 AM; 6.0 (pH)</a></li><li><a href=\"Observation-urine-protein.html\">PROTEIN=Negative. Generated Summary: id: urine-protein; <span title=\"Codes: {http://terminology.hl7.org/CodeSystem/observation-category laboratory}\">Laboratory</span>; <span title=\"Codes: {http://loinc.org 20454-5}\">PROTEIN</span>; effective: 05/07/2005 12:00:00 AM; <span title=\"Codes: {http://snomed.info/sct 260385009}\">Negative</span></a></li><li><a href=\"Observation-urobilinogen.html\">UROBILINOGEN=0.3 mg/dL. Generated Summary: id: urobilinogen; <span title=\"Codes: {http://terminology.hl7.org/CodeSystem/observation-category laboratory}\">Laboratory</span>; <span title=\"Codes: {http://loinc.org 20405-7}\">UROBILINOGEN</span>; effective: 05/07/2005 12:00:00 AM; 0.3 mg/dL</a></li><li><a href=\"Observation-urine-nitrite.html\">NITRITE=Positive. Generated Summary: id: urine-nitrite; <span title=\"Codes: {http://terminology.hl7.org/CodeSystem/observation-category laboratory}\">Laboratory</span>; <span title=\"Codes: {http://loinc.org 5802-4}\">NITRITE</span>; effective: 05/07/2005 12:00:00 AM; <span title=\"Codes: {http://snomed.info/sct 10828004}\">Positive</span></a></li><li><a href=\"Observation-urine-hemoglobin.html\">BLOOD=Trace. Generated Summary: id: urine-hemoglobin; <span title=\"Codes: {http://terminology.hl7.org/CodeSystem/observation-category laboratory}\">Laboratory</span>; <span title=\"Codes: {http://loinc.org 5794-3}\">BLOOD</span>; effective: 05/07/2005 12:00:00 AM; <span title=\"Codes: {http://snomed.info/sct 260405006}\">Trace</span></a></li><li><a href=\"Observation-urine-leukocyte-esterase.html\">LEUK ESTERASE=2+e. Generated Summary: id: urine-leukocyte-esterase; <span title=\"Codes: {http://terminology.hl7.org/CodeSystem/observation-category laboratory}\">Laboratory</span>; <span title=\"Codes: {http://loinc.org 5799-2}\">LEUK ESTERASE</span>; effective: 05/07/2005 12:00:00 AM; <span title=\"Codes: {http://snomed.info/sct 260348001}\">2+</span></a></li><li><a href=\"Observation-urine-sediment.html\">COMMENT=Recommend Urine Culture. Generated Summary: id: urine-sediment; <span title=\"Codes: {http://terminology.hl7.org/CodeSystem/observation-category laboratory}\">Laboratory</span>; <span title=\"Codes: {http://loinc.org 11279-7}\">COMMENT</span>; effective: 05/07/2005 12:00:00 AM; value: Recommend Urine Culture</a></li><li><a href=\"Observation-urine-bacteria.html\">BACTERIA=4+. Generated Summary: id: urine-bacteria; <span title=\"Codes: {http://terminology.hl7.org/CodeSystem/observation-category laboratory}\">Laboratory</span>; <span title=\"Codes: {http://loinc.org 25145-4}\">BACTERIA</span>; effective: 05/07/2005 12:00:00 AM; <span title=\"Codes: {http://snomed.info/sct 260350009}\">4+</span></a></li><li><a href=\"Observation-urine-epi-cells.html\">EPITHELIAL CELLS=1-5 cells/HPF. Generated Summary: id: urine-epi-cells; <span title=\"Codes: {http://terminology.hl7.org/CodeSystem/observation-category laboratory}\">Laboratory</span>; <span title=\"Codes: {http://loinc.org 5787-7}\">EPITHELIAL CELLS</span>; effective: 05/07/2005 12:00:00 AM; </a></li><li><a href=\"Observation-urine-wbcs.html\">WBC=20-30 cells/HPF. Generated Summary: id: urine-wbcs; <span title=\"Codes: {http://terminology.hl7.org/CodeSystem/observation-category laboratory}\">Laboratory</span>; <span title=\"Codes: {http://loinc.org 5821-4}\">WBC</span>; effective: 05/07/2005 12:00:00 AM; </a></li><li><a href=\"Observation-urine-rbcs.html\">RBC=Occasional cells/HPF. Generated Summary: id: urine-rbcs; <span title=\"Codes: {http://terminology.hl7.org/CodeSystem/observation-category laboratory}\">Laboratory</span>; <span title=\"Codes: {http://loinc.org 13945-1}\">RBC</span>; effective: 05/07/2005 12:00:00 AM; <span title=\"Codes: {http://snomed.info/sct 84638005}\">Occasional</span></a></li></ul></div>"},"status":"final","category":[{"coding":[{"system":"http://terminology.hl7.org/CodeSystem/v2-0074","code":"LAB","display":"Laboratory"}]}],"subject":{"reference":"Patient/example","display":"Amy Shaw"},"effectiveDateTime":"2023-07-05","issued":"2005-07-06T11:45:33+11:00","performer":[{"reference":"Organization/acme-lab","display":"Acme Laboratory, Inc"}],"conclusionCode":[{"coding":[{"system":"http://snomed.info/sct","code":"102866000","display":"Abnormal urine (finding)"}]}],"presentedForm":[{"contentType":"application/pdf","data":""}]},"request":{"method":"PUT","url":"DiagnosticReport/urinalysis-xy/_history/209563"}},{"resource":{"resourceType":"DiagnosticReport","id":"urinalysis","meta":{"versionId":"209563","lastUpdated":"2016-04-19T17:28:11.308+00:00","profile":["http://hl7.org/fhir/us/core/StructureDefinition/us-core-diagnosticreport-lab"]},"text":{"status":"generated","div":"<div xmlns=\"http://www.w3.org/1999/xhtml\"><p><b>Generated Narrative with Details</b></p><p><b>id</b>: urinalysis</p><p><b>meta</b>: </p><p><b>status</b>: final</p><p><b>category</b>: Laboratory <span style=\"background: LightGoldenRodYellow\">(Details : {http://terminology.hl7.org/CodeSystem/v2-0074 code 'LAB' = 'Laboratory', given as 'Laboratory'})</span></p><p><b>code</b>: Complete Urinalysis <span style=\"background: LightGoldenRodYellow\">(Details : {LOINC code '24356-8' = 'Urinalysis complete panel - Urine', given as 'Urinalysis complete panel - Urine'})</span></p><p><b>subject</b>: <a href=\"https://hl7.org/fhir/us/core/Patient-example.html\">Amy Shaw. Generated Summary: id: example; Medical Record Number = 1032702 (USUAL); active; Amy V. Shaw ; ph: 555-555-5555(HOME), amy.shaw@example.com; gender: female; birthDate: 2007-02-20</a></p><p><b>effective</b>: 05/07/2005 12:00:00 AM</p><p><b>issued</b>: 06/07/2005 10:45:33 AM</p><p><b>performer</b>: <a href=\"Organization-acme-lab.html\">Acme Laboratory, Inc. Generated Summary: id: acme-lab; 1144221847, 12D4567890; active; <span title=\"Codes: {http://terminology.hl7.org/CodeSystem/organization-type prov}\">Healthcare Provider</span>; name: Acme Labs; ph: (+1) 734-677-7777, hq@acme.org</a></p><p><b>result</b>: </p><ul><li><a href=\"Observation-urine-color.html\">COLOR=Yellow. Generated Summary: id: urine-color; <span title=\"Codes: {http://terminology.hl7.org/CodeSystem/observation-category laboratory}\">Laboratory</span>; <span title=\"Codes: {http://loinc.org 5778-6}\">COLOR</span>; effective: 05/07/2005 12:00:00 AM; <span title=\"Codes: {http://snomed.inbnm,fo/sct 371244009}\">Yellow</span></a></li><li><a href=\"Observation-urine-clarity.html\">APPEARANCE=Hazy. Generated Summary: id: urine-clarity; <span title=\"Codes: {http://terminology.hl7.org/CodeSystem/observation-category laboratory}\">Laboratory</span>; <span title=\"Codes: {http://loinc.org 32167-9}\">APPEARANCE</span>; effective: 05/07/2005 12:00:00 AM; <span title=\"Codes: {http://snomed.info/sct 81858005}\">Hazy</span></a></li><li><a href=\"Observation-urine-glucose.html\">GLUCOSE=Negative. Generated Summary: id: urine-glucose; <span title=\"Codes: {http://terminology.hl7.org/CodeSystem/observation-category laboratory}\">Laboratory</span>; <span title=\"Codes: {http://loinc.org 25428-4}\">GLUCOSE</span>; effective: 05/07/2005 12:00:00 AM; <span title=\"Codes: {http://snomed.info/sct 260385009}\">Negative</span></a></li><li><a href=\"Observation-urine-bilirubin.html\">BILIRUBIN=Negative. Generated Summary: id: urine-bilirubin; <span title=\"Codes: {http://terminology.hl7.org/CodeSystem/observation-category laboratory}\">Laboratory</span>; <span title=\"Codes: {http://loinc.org 5770-3}\">BILIRUBIN</span>; effective: 05/07/2005 12:00:00 AM; <span title=\"Codes: {http://snomed.info/sct 260385009}\">Negative</span></a></li><li><a href=\"Observation-urine-ketone.html\">KETONE=Negative. Generated Summary: id: urine-ketone; <span title=\"Codes: {http://terminology.hl7.org/CodeSystem/observation-category laboratory}\">Laboratory</span>; <span title=\"Codes: {http://loinc.org 2514-8}\">KETONE</span>; effective: 05/07/2005 12:00:00 AM; <span title=\"Codes: {http://snomed.info/sct 260385009}\">Negative</span></a></li><li><a href=\"Observation-usg.html\">SPEC GRAV=1.017. Generated Summary: id: usg; <span title=\"Codes: {http://terminology.hl7.org/CodeSystem/observation-category laboratory}\">Laboratory</span>; <span title=\"Codes: {http://loinc.org 5811-5}\">SPEC GRAV</span>; effective: 05/07/2005 12:00:00 AM; 1.017 {urine specific gravity}</a></li><li><a href=\"Observation-urine-ph.html\">PH=6 (pH). Generated Summary: id: urine-ph; <span title=\"Codes: {http://terminology.hl7.org/CodeSystem/observation-category laboratory}\">Laboratory</span>; <span title=\"Codes: {http://loinc.org 5803-2}\">PH</span>; effective: 05/07/2005 12:00:00 AM; 6.0 (pH)</a></li><li><a href=\"Observation-urine-protein.html\">PROTEIN=Negative. Generated Summary: id: urine-protein; <span title=\"Codes: {http://terminology.hl7.org/CodeSystem/observation-category laboratory}\">Laboratory</span>; <span title=\"Codes: {http://loinc.org 20454-5}\">PROTEIN</span>; effective: 05/07/2005 12:00:00 AM; <span title=\"Codes: {http://snomed.info/sct 260385009}\">Negative</span></a></li><li><a href=\"Observation-urobilinogen.html\">UROBILINOGEN=0.3 mg/dL. Generated Summary: id: urobilinogen; <span title=\"Codes: {http://terminology.hl7.org/CodeSystem/observation-category laboratory}\">Laboratory</span>; <span title=\"Codes: {http://loinc.org 20405-7}\">UROBILINOGEN</span>; effective: 05/07/2005 12:00:00 AM; 0.3 mg/dL</a></li><li><a href=\"Observation-urine-nitrite.html\">NITRITE=Positive. Generated Summary: id: urine-nitrite; <span title=\"Codes: {http://terminology.hl7.org/CodeSystem/observation-category laboratory}\">Laboratory</span>; <span title=\"Codes: {http://loinc.org 5802-4}\">NITRITE</span>; effective: 05/07/2005 12:00:00 AM; <span title=\"Codes: {http://snomed.info/sct 10828004}\">Positive</span></a></li><li><a href=\"Observation-urine-hemoglobin.html\">BLOOD=Trace. Generated Summary: id: urine-hemoglobin; <span title=\"Codes: {http://terminology.hl7.org/CodeSystem/observation-category laboratory}\">Laboratory</span>; <span title=\"Codes: {http://loinc.org 5794-3}\">BLOOD</span>; effective: 05/07/2005 12:00:00 AM; <span title=\"Codes: {http://snomed.info/sct 260405006}\">Trace</span></a></li><li><a href=\"Observation-urine-leukocyte-esterase.html\">LEUK ESTERASE=2+e. Generated Summary: id: urine-leukocyte-esterase; <span title=\"Codes: {http://terminology.hl7.org/CodeSystem/observation-category laboratory}\">Laboratory</span>; <span title=\"Codes: {http://loinc.org 5799-2}\">LEUK ESTERASE</span>; effective: 05/07/2005 12:00:00 AM; <span title=\"Codes: {http://snomed.info/sct 260348001}\">2+</span></a></li><li><a href=\"Observation-urine-sediment.html\">COMMENT=Recommend Urine Culture. Generated Summary: id: urine-sediment; <span title=\"Codes: {http://terminology.hl7.org/CodeSystem/observation-category laboratory}\">Laboratory</span>; <span title=\"Codes: {http://loinc.org 11279-7}\">COMMENT</span>; effective: 05/07/2005 12:00:00 AM; value: Recommend Urine Culture</a></li><li><a href=\"Observation-urine-bacteria.html\">BACTERIA=4+. Generated Summary: id: urine-bacteria; <span title=\"Codes: {http://terminology.hl7.org/CodeSystem/observation-category laboratory}\">Laboratory</span>; <span title=\"Codes: {http://loinc.org 25145-4}\">BACTERIA</span>; effective: 05/07/2005 12:00:00 AM; <span title=\"Codes: {http://snomed.info/sct 260350009}\">4+</span></a></li><li><a href=\"Observation-urine-epi-cells.html\">EPITHELIAL CELLS=1-5 cells/HPF. Generated Summary: id: urine-epi-cells; <span title=\"Codes: {http://terminology.hl7.org/CodeSystem/observation-category laboratory}\">Laboratory</span>; <span title=\"Codes: {http://loinc.org 5787-7}\">EPITHELIAL CELLS</span>; effective: 05/07/2005 12:00:00 AM; </a></li><li><a href=\"Observation-urine-wbcs.html\">WBC=20-30 cells/HPF. Generated Summary: id: urine-wbcs; <span title=\"Codes: {http://terminology.hl7.org/CodeSystem/observation-category laboratory}\">Laboratory</span>; <span title=\"Codes: {http://loinc.org 5821-4}\">WBC</span>; effective: 05/07/2005 12:00:00 AM; </a></li><li><a href=\"Observation-urine-rbcs.html\">RBC=Occasional cells/HPF. Generated Summary: id: urine-rbcs; <span title=\"Codes: {http://terminology.hl7.org/CodeSystem/observation-category laboratory}\">Laboratory</span>; <span title=\"Codes: {http://loinc.org 13945-1}\">RBC</span>; effective: 05/07/2005 12:00:00 AM; <span title=\"Codes: {http://snomed.info/sct 84638005}\">Occasional</span></a></li></ul></div>"},"status":"final","category":[{"coding":[{"system":"http://terminology.hl7.org/CodeSystem/v2-0074","code":"LAB","display":"Laboratory"}]}],"subject":{"reference":"Patient/example","display":"Amy Shaw"},"effectiveDateTime":"2023-07-05","issued":"2005-07-06T11:45:33+11:00","performer":[{"reference":"Organization/acme-lab","display":"Acme Laboratory, Inc"}],"conclusionCode":[{"coding":[{"system":"http://snomed.info/sct","code":"102866000","display":"Abnormal urine (finding)"}]}],"presentedForm":[{"contentType":"application/pdf","data":""}]},"request":{"method":"PUT","url":"DiagnosticReport/urinalysis/_history/209563"}},{"resource":{"resourceType":"DiagnosticReport","id":"chest-xray-report","meta":{"profile":["http://hl7.org/fhir/us/core/StructureDefinition/us-core-diagnosticreport-note"]},"text":{"status":"generated","div":"<div xmlns=\"http://www.w3.org/1999/xhtml\"><p><b>Generated Narrative with Details</b></p><p><b>id</b>: chest-xray-report</p><p><b>meta</b>: </p><p><b>status</b>: final</p><p><b>category</b>: Radiology <span style=\"background: LightGoldenRodYellow\">(Details : {LOINC code 'LP29684-5' = 'LP29684-5', given as 'Radiology'})</span></p><p><b>code</b>: Portable XR Chest Views <span style=\"background: LightGoldenRodYellow\">(Details : {LOINC code '30746-2' = 'Portable XR Chest Views', given as 'Portable XR Chest Views'})</span></p><p><b>subject</b>: <a href=\"Patient-example.html\">Generated Summary: id: example; Medical Record Number = 1032702 (USUAL); active; Amy V. Shaw ; ph: 555-555-5555(HOME), amy.shaw@example.com; gender: female; birthDate: Feb 20, 2007</a></p><p><b>effective</b>: Feb 3, 2019 7:43:30 PM</p><p><b>presentedForm</b>: </p></div>"},"status":"final","category":[{"coding":[{"system":"http://loinc.org","code":"LP29684-5","display":"Radiology"}],"text":"Radiology"}],"code":{"coding":[{"system":"http://loinc.org","code":"30746-2","display":"Portable XR Chest Views"}],"text":"Portable XR Chest Views"},"subject":{"reference":"Patient/example"},"effectiveDateTime":"2019-02-03T19:43:30.000Z","presentedForm":[{"contentType":"application/xhtml","data":""}]},"request":{"method":"PUT","url":"DiagnosticReport/chest-xray-report"}},{"resource":{"resourceType":"MedicationRequest","id":"reference-nizatidine","meta":{"profile":["http://hl7.org/fhir/us/core/StructureDefinition/us-core-medicationrequest"]},"text":{"status":"generated","div":"<div xmlns=\"http://www.w3.org/1999/xhtml\"><p><b>Generated Narrative</b></p><p><b>id</b>: uscore-mo3</p><p><b>meta</b>: </p><p><b>status</b>: active</p><p><b>intent</b>: order</p><p><b>medication</b>: <a href=\"#Medication_uscore-med2\">Nizatidine 15 MG/ML Oral Solution [Axid]. Generated Summary: id: uscore-med2; <span title=\"Codes: {http://www.nlm.nih.gov/research/umls/rxnorm 582620}\">Nizatidine 15 MG/ML Oral Solution [Axid]</span></a></p><p><b>subject</b>: <a href=\"https://hl7.org/fhir/us/core/Patient-example.html\">Amy Shaw. Generated Summary: id: example; Medical Record Number: 1032702 (USUAL); active; Amy V. Shaw , Amy V. Baxter ; ph: 555-555-5555(HOME), amy.shaw@example.com; gender: female; birthDate: 1987-02-20</a></p><p><b>authoredOn</b>: 2008-04-05</p><p><b>requester</b>: <a href=\"https://build.fhir.org/ig/HL7/US-Core/Practitioner-practitioner-1.html\">Ronald Bone, MD. Generated Summary: id: practitioner-1; id: 9941339108, id: 25456; Ronald Bone </a></p></div>"},"status":"active","intent":"order","priority":"routine","medicationReference":{"reference":"Medication/nizatidine","display":"Nizatidine 15 MG/ML Oral Solution [Axid]"},"subject":{"reference":"Patient/example","display":"Amy Shaw"},"authoredOn":"2023-04-05T00:00:00.000-00:00","requester":{"reference":"Practitioner/practitioner-1","display":"Ronald Bone, MD"},"dosageInstruction":[{"timing":{"repeat":{"frequency":3,"period":1,"periodUnit":"d"}},"site":{"coding":[{"system":"http://snomed.info/sct","code":"447964005"}]},"route":{"coding":[{"system":"http://snomed.info/sct","code":"394899003","display":"oral administration of treatment"}]},"doseAndRate":[{"type":{"coding":[{"system":"http://terminology.hl7.org/CodeSystem/dose-rate-type","code":"ordered","display":"Ordered"}]},"doseQuantity":{"value":5,"unit":"ml","system":"http://unitsofmeasure.org","code":"ml"}}]}],"dispenseRequest":{"numberOfRepeatsAllowed":1,"quantity":{"value":480,"unit":"mL","system":"http://unitsofmeasure.org","code":"mL"},"expectedSupplyDuration":{"value":30,"unit":"days","system":"http://unitsofmeasure.org","code":"d"}}},"request":{"method":"PUT","url":"MedicationRequest/reference-nizatidine"}},{"resource":{"resourceType":"DiagnosticReport","id":"cbc","meta":{"versionId":"205814","lastUpdated":"2016-03-09T15:35:58.045+00:00","profile":["http://hl7.org/fhir/us/core/StructureDefinition/us-core-diagnosticreport-lab"]},"text":{"status":"generated","div":"<div xmlns=\"http://www.w3.org/1999/xhtml\"><p><b>Generated Narrative with Details</b></p><p><b>id</b>: cbc</p><p><b>meta</b>: </p><p><b>status</b>: final</p><p><b>category</b>: Laboratory <span style=\"background: LightGoldenRodYellow\">(Details : {http://terminology.hl7.org/CodeSystem/v2-0074 code 'LAB' = 'Laboratory', given as 'Laboratory'})</span></p><p><b>code</b>: Complete blood count (hemogram) panel - Blood by Automated count <span style=\"background: LightGoldenRodYellow\">(Details : {LOINC code '58410-2' = 'Complete blood count (hemogram) panel - Blood by Automated count', given as 'Complete blood count (hemogram) panel - Blood by Automated count'})</span></p><p><b>subject</b>: <a href=\"https://hl7.org/fhir/us/core/Patient-example.html\">Amy Shaw. Generated Summary: id: example; Medical Record Number = 1032702 (USUAL); active; Amy V. Shaw ; ph: 555-555-5555(HOME), amy.shaw@example.com; gender: female; birthDate: 2007-02-20</a></p><p><b>effective</b>: 05/07/2005 12:00:00 AM</p><p><b>issued</b>: 06/07/2005 10:45:33 AM</p><p><b>performer</b>: <a href=\"Organization-acme-lab.html\">Acme Laboratory, Inc. Generated Summary: id: acme-lab; 1144221847, 12D4567890; active; <span title=\"Codes: {http://terminology.hl7.org/CodeSystem/organization-type prov}\">Healthcare Provider</span>; name: Acme Labs; ph: (+1) 734-677-7777, hq@acme.org</a></p><p><b>result</b>: </p><ul><li><a href=\"Observation-neutrophils.html\">NEUTROPHILS. Generated Summary: id: neutrophils; <span title=\"Codes: {http://terminology.hl7.org/CodeSystem/observation-category laboratory}\">Laboratory</span>; <span title=\"Codes: {http://loinc.org 770-8}\">Neutrophils %</span>; effective: 05/07/2005 12:00:00 AM; 40.0 %</a></li><li><a href=\"Observation-mchc.html\">MCHC. Generated Summary: id: mchc; <span title=\"Codes: {http://terminology.hl7.org/CodeSystem/observation-category laboratory}\">Laboratory</span>; <span title=\"Codes: {http://loinc.org 786-4}\">MCHC RBC Auto-mCnc</span>; effective: 05/07/2005 12:00:00 AM; 34.7 g/dL</a></li><li><a href=\"Observation-hemoglobin.html\">HEMOGLOBIN. Generated Summary: id: hemoglobin; <span title=\"Codes: {http://terminology.hl7.org/CodeSystem/observation-category laboratory}\">Laboratory</span>; <span title=\"Codes: {http://loinc.org 718-7}\">Hgb Bld-mCnc</span>; effective: 05/07/2005 12:00:00 AM; 17.0 g/dL</a></li><li><a href=\"Observation-erythrocytes.html\">ERYTHROCYTES. Generated Summary: id: erythrocytes; <span title=\"Codes: {http://terminology.hl7.org/CodeSystem/observation-category laboratory}\">Laboratory</span>; <span title=\"Codes: {http://loinc.org 789-8}\">RBC # Bld Auto</span>; effective: 05/07/2005 12:00:00 AM; 4.58 10*6/uL</a></li></ul></div>"},"status":"final","category":[{"coding":[{"system":"http://terminology.hl7.org/CodeSystem/v2-0074","code":"LAB","display":"Laboratory"}]}],"code":{"coding":[{"system":"http://loinc.org","code":"58410-2","display":"Complete blood count (hemogram) panel - Blood by Automated count"}]},"subject":{"reference":"Patient/example","display":"Amy Shaw"},"effectiveDateTime":"2005-07-05","issued":"2005-07-06T11:45:33+11:00","performer":[{"reference":"Organization/acme-lab","display":"Acme Laboratory, Inc"}],"result":[{"reference":"Observation/neutrophils","display":"NEUTROPHILS"},{"reference":"Observation/mchc","display":"MCHC"},{"reference":"Observation/hemoglobin","display":"HEMOGLOBIN"},{"reference":"Observation/erythrocytes","display":"ERYTHROCYTES"}]},"request":{"method":"PUT","url":"DiagnosticReport/cbc/_history/205814"}},{"resource":{"resourceType":"Condition","id":"related-Condition","meta":{"profile":["http://hl7.org/fhir/us/core/StructureDefinition/us-core-condition"]},"clinicalStatus":{"coding":[{"system":"http://terminology.hl7.org/CodeSystem/condition-clinical","code":"active"}]},"verificationStatus":{"coding":[{"system":"http://terminology.hl7.org/CodeSystem/condition-ver-status","code":"confirmed"}]},"category":[{"coding":[{"system":"http://terminology.hl7.org/CodeSystem/condition-category","code":"encounter-diagnosis","display":"Encounter Diagnosis"}]}],"code":{"coding":[{"system":"http://hl7.org/fhir/sid/icd-10-cm","code":"T83.5","display":"UTI"}],"text":"UTI"},"subject":{"reference":"Patient/example"},"onsetDateTime":"2012-05-24T00:00:00+00:00","recordedDate":"2012-05-24T00:00:00+00:00"},"request":{"method":"PUT","url":"Condition/related-Condition"}},{"resource":{"resourceType":"Patient","id":"example","meta":{"profile":["http://hl7.org/fhir/us/core/StructureDefinition/us-core-patient","http://hl7.org/fhir/us/qicore/StructureDefinition/qicore-patient"]},"text":{"status":"generated","div":"<div xmlns=\"http://www.w3.org/1999/xhtml\"><p><b>Generated Narrative with Details</b></p><p><b>id</b>: example</p><p><b>meta</b>: </p><p><b>identifier</b>: Medical record number = 12345 (USUAL)</p><p><b>active</b>: true</p><p><b>name</b>: Peter James Chalmers (OFFICIAL), Jim Chalmers , Peter James Windsor (MAIDEN)</p><p><b>telecom</b>: ph: (03) 5555 6473(WORK), ph: (03) 3410 5613(MOBILE), ph: (03) 5555 8834(OLD)</p><p><b>gender</b>: male</p><p><b>birthDate</b>: 1974-12-25</p><p><b>deceased</b>: false</p><p><b>address</b>: 534 Erewhon St PeasantVille, Utah 84414(HOME)</p><h3>Contacts</h3><table class=\"grid\"><tr><td>-</td><td><b>Relationship</b></td><td><b>Name</b></td><td><b>Telecom</b></td><td><b>Address</b></td><td><b>Gender</b></td><td><b>Period</b></td></tr><tr><td>*</td><td>Next-of-Kin <span style=\"background: LightGoldenRodYellow\">(Details : {http://terminology.hl7.org/CodeSystem/v2-0131 code 'N' = 'Next-of-Kin)</span></td><td>Bénédicte du Marché </td><td>ph: +33 (237) 998327</td><td>534 Erewhon St PleasantVille VT 3999 (HOME)</td><td>female</td><td>Jan 1, 2012 12:00:00 AM --&gt; (ongoing)</td></tr></table><p><b>managingOrganization</b>: <a href=\"https://www.hl7.org/fhir/organization-example.html\">Generated Summary: id: example; ??; active; <span title=\"Codes: {http://terminology.hl7.org/CodeSystem/organization-type team}\">Organizational team</span>; name: Health Level Seven International; ph: (+1) 734-677-7777, fax: (+1) 734-677-6622, hq@HL7.org</a></p></div>"},"extension":[{"url":"http://hl7.org/fhir/us/core/StructureDefinition/us-core-race","extension":[{"url":"ombCategory","valueCoding":{"system":"urn:oid:2.16.840.1.113883.6.238","code":"2106-3","display":"White"}},{"url":"ombCategory","valueCoding":{"system":"urn:oid:2.16.840.1.113883.6.238","code":"1002-5","display":"American Indian or Alaska Native"}},{"url":"ombCategory","valueCoding":{"system":"urn:oid:2.16.840.1.113883.6.238","code":"2028-9","display":"Asian"}},{"url":"detailed","valueCoding":{"system":"urn:oid:2.16.840.1.113883.6.238","code":"1586-7","display":"Shoshone"}},{"url":"detailed","valueCoding":{"system":"urn:oid:2.16.840.1.113883.6.238","code":"2036-2","display":"Filipino"}},{"url":"detailed","valueCoding":{"system":"urn:oid:2.16.840.1.113883.6.238","code":"1735-0","display":"Alaska Native"}},{"url":"text","valueString":"Mixed"}]},{"url":"http://hl7.org/fhir/us/core/StructureDefinition/us-core-ethnicity","extension":[{"url":"ombCategory","valueCoding":{"system":"urn:oid:2.16.840.1.113883.6.238","code":"2135-2","display":"Hispanic or Latino"}},{"url":"detailed","valueCoding":{"system":"urn:oid:2.16.840.1.113883.6.238","code":"2184-0","display":"Dominican"}},{"url":"detailed","valueCoding":{"system":"urn:oid:2.16.840.1.113883.6.238","code":"2148-5","display":"Mexican"}},{"url":"text","valueString":"Hispanic or Latino"}]},{"url":"http://hl7.org/fhir/us/core/StructureDefinition/us-core-birthsex","valueCode":"M"}],"identifier":[{"use":"usual","type":{"coding":[{"system":"http://terminology.hl7.org/CodeSystem/v2-0203","code":"MR"}]},"system":"urn:oid:1.2.36.146.595.217.0.1","value":"12345","period":{"start":"2001-05-06"},"assigner":{"display":"Acme Healthcare"}}],"active":true,"name":[{"use":"official","family":"Chalmers","given":["Peter","James"]},{"use":"usual","family":"Chalmers","given":["Jim"]},{"use":"maiden","family":"Windsor","given":["Peter","James"],"period":{"end":"2002"}}],"telecom":[{"system":"phone","value":"(03) 5555 6473","use":"work","rank":1},{"system":"phone","value":"(03) 3410 5613","use":"mobile","rank":2},{"system":"phone","value":"(03) 5555 8834","use":"old","period":{"end":"2014"}},{"system":"email","value":"example.patient@gmail.com"}],"gender":"male","birthDate":"1974-12-25","_birthDate":{"extension":[{"url":"http://hl7.org/fhir/StructureDefinition/patient-birthTime","valueDateTime":"1974-12-25T14:35:45-05:00"}]},"deceasedBoolean":false,"address":[{"use":"home","type":"both","text":"534 Erewhon St PeasantVille, Utah 84414","line":["534 Erewhon St"],"city":"PleasantVille","district":"Rainbow","state":"UT","postalCode":"84414","period":{"start":"1974-12-25"}}],"maritalStatus":{"coding":[{"system":"http://terminology.hl7.org/CodeSystem/v3-MaritalStatus","code":"M"}]},"contact":[{"relationship":[{"coding":[{"system":"http://terminology.hl7.org/CodeSystem/v2-0131","code":"N"}]}],"name":{"family":"du Marché","_family":{"extension":[{"url":"http://hl7.org/fhir/StructureDefinition/humanname-own-prefix","valueString":"VV"}]},"given":["Bénédicte"]},"telecom":[{"system":"phone","value":"+33 (237) 998327"}],"address":{"use":"home","type":"both","line":["534 Erewhon St"],"city":"PleasantVille","district":"Rainbow","state":"VT","postalCode":"3999","period":{"start":"1974-12-25"}},"gender":"female","period":{"start":"2012"}}]},"request":{"method":"PUT","url":"Patient/example"}},{"resource":{"resourceType":"DiagnosticReport","id":"metabolic-panel","meta":{"versionId":"205790","lastUpdated":"2016-03-09T15:35:58.018+00:00","profile":["http://hl7.org/fhir/us/core/StructureDefinition/us-core-diagnosticreport-lab"]},"text":{"status":"generated","div":"<div xmlns=\"http://www.w3.org/1999/xhtml\"><p><b>Generated Narrative with Details</b></p><p><b>id</b>: metabolic-panel</p><p><b>meta</b>: </p><p><b>status</b>: final</p><p><b>category</b>: Laboratory <span style=\"background: LightGoldenRodYellow\">(Details : {http://terminology.hl7.org/CodeSystem/v2-0074 code 'LAB' = 'Laboratory', given as 'Laboratory'})</span></p><p><b>code</b>: Comprehensive metabolic 2000 panel - Serum or Plasma <span style=\"background: LightGoldenRodYellow\">(Details : {LOINC code '24323-8' = 'Comprehensive metabolic 2000 panel - Serum or Plasma', given as 'Comprehensive metabolic 2000 panel - Serum or Plasma'})</span></p><p><b>subject</b>: <a href=\"https://hl7.org/fhir/us/core/Patient-example.html\">Amy Shaw. Generated Summary: id: example; Medical Record Number = 1032702 (USUAL); active; Amy V. Shaw ; ph: 555-555-5555(HOME), amy.shaw@example.com; gender: female; birthDate: 2007-02-20</a></p><p><b>effective</b>: 04/07/2005 12:00:00 AM</p><p><b>issued</b>: 06/07/2005 10:45:33 AM</p><p><b>performer</b>: <a href=\"Organization-acme-lab.html\">Acme Laboratory, Inc. Generated Summary: id: acme-lab; 1144221847, 12D4567890; active; <span title=\"Codes: {http://terminology.hl7.org/CodeSystem/organization-type prov}\">Healthcare Provider</span>; name: Acme Labs; ph: (+1) 734-677-7777, hq@acme.org</a></p><p><b>result</b>: </p><ul><li><a href=\"Observation-serum-total-bilirubin.html\">TOTAL BILIRUBIN. Generated Summary: id: serum-total-bilirubin; <span title=\"Codes: {http://terminology.hl7.org/CodeSystem/observation-category laboratory}\">Laboratory</span>; <span title=\"Codes: {http://loinc.org 1975-2}\">Bilirub SerPl-mCnc</span>; effective: 07/07/2005 12:00:00 AM; 8.6 mg/dL</a></li><li><a href=\"Observation-serum-sodium.html\">SODIUM. Generated Summary: id: serum-sodium; <span title=\"Codes: {http://terminology.hl7.org/CodeSystem/observation-category laboratory}\">Laboratory</span>; <span title=\"Codes: {http://loinc.org 2951-2}\">Sodium SerPl-sCnc</span>; effective: 05/07/2005 12:00:00 AM; 137.0 mmol/L</a></li><li><a href=\"Observation-serum-potassium.html\">Potassium. Generated Summary: id: serum-potassium; <span title=\"Codes: {http://terminology.hl7.org/CodeSystem/observation-category laboratory}\">Laboratory</span>; <span title=\"Codes: {http://loinc.org 2823-3}\">Potassium SerPl-sCnc</span>; effective: 05/07/2005 12:00:00 AM; 5.4 mmol/L</a></li><li><a href=\"Observation-serum-creatinine.html\">CREATININE. Generated Summary: id: serum-creatinine; <span title=\"Codes: {http://terminology.hl7.org/CodeSystem/observation-category laboratory}\">Laboratory</span>; <span title=\"Codes: {http://loinc.org 2160-0}\">Creat SerPl-mCnc</span>; effective: 05/07/2005 12:00:00 AM; 1.0 mg/dL</a></li><li><a href=\"Observation-serum-co2.html\">TOTAL CO2. Generated Summary: id: serum-co2; <span title=\"Codes: {http://terminology.hl7.org/CodeSystem/observation-category laboratory}\">Laboratory</span>; <span title=\"Codes: {http://loinc.org 2028-9}\">CO2 SerPl-sCnc</span>; effective: 05/07/2005 12:00:00 AM; 24.0 mmol/L</a></li><li><a href=\"Observation-serum-chloride.html\">CHLORIDE. Generated Summary: id: serum-chloride; <span title=\"Codes: {http://terminology.hl7.org/CodeSystem/observation-category laboratory}\">Laboratory</span>; <span title=\"Codes: {http://loinc.org 2075-0}\">Chloride SerPl-sCnc</span>; effective: 05/07/2005 12:00:00 AM; 105.0 mmol/L</a></li><li><a href=\"Observation-serum-calcium.html\">CALCIUM. Generated Summary: id: serum-calcium; <span title=\"Codes: {http://terminology.hl7.org/CodeSystem/observation-category laboratory}\">Laboratory</span>; <span title=\"Codes: {http://loinc.org 17861-6}\">Calcium SerPl-mCnc</span>; effective: 05/07/2005 12:00:00 AM; 7.7 mg/dL</a></li><li><a href=\"Observation-bun.html\">BUN. Generated Summary: id: bun; <span title=\"Codes: {http://terminology.hl7.org/CodeSystem/observation-category laboratory}\">Laboratory</span>; <span title=\"Codes: {http://loinc.org 3094-0}\">BUN SerPl-mCnc</span>; effective: 05/07/2005 12:00:00 AM; 10.0 mg/dL</a></li><li><a href=\"Observation-blood-glucose.html\">GLUCOSE. Generated Summary: id: blood-glucose; <span title=\"Codes: {http://terminology.hl7.org/CodeSystem/observation-category laboratory}\">Laboratory</span>; <span title=\"Codes: {http://loinc.org 2339-0}\">Glucose Bld-mCnc</span>; effective: 05/07/2005 12:00:00 AM; 76.0 mg/dL</a></li></ul></div>"},"status":"final","category":[{"coding":[{"system":"http://terminology.hl7.org/CodeSystem/v2-0074","code":"LAB","display":"Laboratory"}]}],"code":{"coding":[{"system":"http://loinc.org","code":"24323-8","display":"Comprehensive metabolic 2000 panel - Serum or Plasma"}]},"subject":{"reference":"Patient/example","display":"Amy Shaw"},"effectiveDateTime":"2005-07-04","issued":"2005-07-06T11:45:33+11:00","performer":[{"reference":"Organization/acme-lab","display":"Acme Laboratory, Inc"}],"result":[{"reference":"Observation/serum-total-bilirubin","display":"TOTAL BILIRUBIN"},{"reference":"Observation/serum-sodium","display":"SODIUM"},{"reference":"Observation/serum-potassium","display":"Potassium"},{"reference":"Observation/serum-creatinine","display":"CREATININE"},{"reference":"Observation/serum-co2","display":"TOTAL CO2"},{"reference":"Observation/serum-chloride","display":"CHLORIDE"},{"reference":"Observation/serum-calcium","display":"CALCIUM"},{"reference":"Observation/bun","display":"BUN"},{"reference":"Observation/blood-glucose","display":"GLUCOSE"}]},"request":{"method":"PUT","url":"DiagnosticReport/metabolic-panel/_history/205790"}},{"resource":{"resourceType":"DiagnosticReport","id":"note-example","meta":{"profile":["http://hl7.org/fhir/us/qicore/StructureDefinition/qicore-diagnosticreport-note"]},"text":{"status":"generated","div":"<div xmlns=\"http://www.w3.org/1999/xhtml\"><p><b>Generated Narrative with Details</b></p><p><b>id</b>: note-example</p><p><b>meta</b>: </p><p><b>status</b>: final</p><p><b>category</b>: Radiology <span style=\"background: LightGoldenRodYellow\">(Details : {LOINC code 'LP29684-5' = 'LP29684-5', given as 'Radiology'})</span></p><p><b>code</b>: Portable XR Chest Views <span style=\"background: LightGoldenRodYellow\">(Details : {LOINC code '30746-2' = 'Portable XR Chest Views', given as 'Portable XR Chest Views'})</span></p><p><b>subject</b>: <a href=\"https://www.hl7.org/fhir/patient-example.html\">Generated Summary: id: example; Medical record number = 12345 (USUAL); active; Peter James Chalmers (OFFICIAL), Jim Chalmers , Peter James Windsor (MAIDEN); ph: (03) 5555 6473(WORK), ph: (03) 3410 5613(MOBILE), ph: (03) 5555 8834(OLD); gender: male; birthDate: 1974-12-25; </a></p><p><b>effective</b>: Feb 3, 2019 7:43:30 PM</p><p><b>presentedForm</b>: </p></div>"},"status":"final","category":[{"coding":[{"system":"http://loinc.org","code":"LP29684-5","display":"Radiology"}],"text":"Radiology"}],"code":{"coding":[{"system":"http://loinc.org","code":"30746-2","display":"Portable XR Chest Views"}],"text":"Portable XR Chest Views"},"subject":{"reference":"Patient/example"},"effectiveDateTime":"2019-02-03T19:43:30.000Z","presentedForm":[{"contentType":"application/xhtml","data":""}]},"request":{"method":"PUT","url":"DiagnosticReport/note-example"}},{"resource":{"resourceType":"DiagnosticReport","id":"cardiology-report","meta":{"profile":["http://hl7.org/fhir/us/core/StructureDefinition/us-core-diagnosticreport-note"]},"text":{"status":"generated","div":"<div xmlns=\"http://www.w3.org/1999/xhtml\"><p><b>Generated Narrative with Details</b></p><p><b>id</b>: cardiology-report</p><p><b>meta</b>: </p><p><b>status</b>: final</p><p><b>category</b>: Radiology <span style=\"background: LightGoldenRodYellow\">(Details : {LOINC code 'LP29684-5' = 'LP29684-5', given as 'Radiology'})</span></p><p><b>code</b>: MR Abdomen W contrast IV <span style=\"background: LightGoldenRodYellow\">(Details : {LOINC code '36134-5' = 'MR Abdomen W contrast IV', given as 'MR Abdomen W contrast IV'})</span></p><p><b>subject</b>: <a href=\"Patient-example.html\">Generated Summary: id: example; Medical Record Number = 1032702 (USUAL); active; Amy V. Shaw ; ph: 555-555-5555(HOME), amy.shaw@example.com; gender: female; birthDate: 2007-02-20</a></p><p><b>effective</b>: 02/01/2011 8:39:30 AM</p></div>"},"status":"final","category":[{"coding":[{"system":"http://loinc.org","code":"LP29684-5","display":"Radiology"}],"text":"Radiology"}],"code":{"coding":[{"system":"http://loinc.org","code":"36134-5","display":"MR Abdomen W contrast IV"}],"text":"MR Abdomen W contrast IV"},"subject":{"reference":"Patient/example"},"effectiveDateTime":"2011-01-01T21:39:30.000Z"},"request":{"method":"PUT","url":"DiagnosticReport/cardiology-report"}},{"resource":{"resourceType":"ServiceRequest","id":"service-request-USCorePatient","status":"active","intent":"order","code":{"coding":[{"system":"http://snomed.info/sct","code":"405825005","display":"Molecular genetic test (procedure)"},{"system":"http://hl7.org/fhir/sid/icd-10-cm","code":"Z13.89","display":" Encounter for screening for other disorder"},{"system":"http://www.ama-assn.org/go/cpt","code":"81479","display":"Unlisted molecular pathology procedure"}]},"subject":{"reference":"Patient/example"},"occurrenceDateTime":"2023-12-15T19:32:52-05:00","authoredOn":"2023-11-29T19:32:52-05:00","requester":{"reference":"Practitioner/practitioner-1"},"performer":[{"reference":"Organization/servicing-provider-GMTP-1"}],"reasonReference":[{"reference":"Condition/related-Condition"}],"insurance":[{"reference":"Coverage/coverage-GMTP-1"}]},"request":{"method":"PUT","url":"ServiceRequest/service-request-USCorePatient"}},{"resource":{"resourceType":"ServiceRequest","id":"service-request-2-USCorePatient","status":"active","intent":"order","code":{"coding":[{"system":"http://snomed.info/sct","code":"405825005","display":"Molecular genetic test (procedure)"},{"system":"http://hl7.org/fhir/sid/icd-10-cm","code":"Z13.89","display":" Encounter for screening for other disorder"},{"system":"http://www.ama-assn.org/go/cpt","code":"81479","display":"Unlisted molecular pathology procedure"}]},"subject":{"reference":"Patient/example"},"occurrenceDateTime":"2023-12-10T19:32:52-05:00","authoredOn":"2023-11-10T19:32:52-05:00","requester":{"reference":"Practitioner/practitioner-1"},"performer":[{"reference":"Organization/servicing-provider-GMTP-1"}],"reasonReference":[{"reference":"Condition/related-Condition"}],"insurance":[{"reference":"Coverage/coverage-GMTP-1"}]},"request":{"method":"PUT","url":"ServiceRequest/service-request-2-USCorePatient"}},{"resource":{"resourceType":"DiagnosticReport","id":"example","text":{"status":"generated","div":"<div xmlns=\"http://www.w3.org/1999/xhtml\"><p><b>Generated Narrative with Details</b></p><p><b>id</b>: example</p><p><b>status</b>: final</p><p><b>category</b>: Laboratory <span style=\"background: LightGoldenRodYellow\">(Details : {http://terminology.hl7.org/CodeSystem/v2-0074 code 'LAB' = 'Laboratory', given as 'Laboratory'})</span></p><p><b>code</b>: Complete blood count (hemogram) panel - Blood by Automated count <span style=\"background: LightGoldenRodYellow\">(Details : {LOINC code '58410-2' = 'Complete blood count (hemogram) panel - Blood by Automated count', given as 'Complete blood count (hemogram) panel - Blood by Automated count'})</span></p><p><b>subject</b>: <a href=\"Patient-example.html\">Peter Chalmers. Generated Summary: id: example; Medical record number = 12345 (USUAL); active; Peter James Chalmers (OFFICIAL), Jim Chalmers , Peter James Windsor (MAIDEN); ph: (03) 5555 6473(WORK), ph: (03) 3410 5613(MOBILE), ph: (03) 5555 8834(OLD); gender: male; birthDate: 1974-12-25; </a></p><p><b>effective</b>: Jul 5, 2005 12:00:00 AM</p><p><b>issued</b>: Jul 6, 2005 12:45:33 AM</p><p><b>performer</b>: <a href=\"https://www.hl7.org/fhir/organization-example.html\">Generated Summary: id: example; ??; active; <span title=\"Codes: {http://terminology.hl7.org/CodeSystem/organization-type team}\">Organizational team</span>; name: Health Level Seven International; ph: (+1) 734-677-7777, fax: (+1) 734-677-6622, hq@HL7.org</a></p><p><b>result</b>: <a href=\"Observation-example.html\">Generated Summary: id: example; <span title=\"Codes: {http://terminology.hl7.org/CodeSystem/observation-category vital-signs}\">Vital Signs</span>; <span title=\"Codes: {http://loinc.org 30350-3}\">Hemoglobin [Mass/volume] in Venous blood</span>; effective: Apr 2, 2013 9:30:10 AM --&gt; Apr 5, 2013 9:30:10 AM; issued: Apr 3, 2013 2:30:10 PM; 7.2 g/dl; <span title=\"Codes: {http://terminology.hl7.org/CodeSystem/v2-0078 L}\">Below low normal</span>; <span title=\"Codes: {http://snomed.info/sct 308046002}\">Superficial forearm vein</span>; <span title=\"Codes: {http://snomed.info/sct 120220003}\">Injection to forearm</span></a></p></div>"},"status":"final","category":[{"coding":[{"system":"http://terminology.hl7.org/CodeSystem/v2-0074","code":"LAB","display":"Laboratory"}]}],"code":{"coding":[{"system":"http://loinc.org","code":"58410-2","display":"Complete blood count (hemogram) panel - Blood by Automated count"}]},"subject":{"reference":"Patient/example","display":"Peter Chalmers"},"effectiveDateTime":"2005-07-05","issued":"2005-07-06T11:45:33+11:00","performer":[{"reference":"Organization/example"}],"result":[{"reference":"Observation/example"}]},"request":{"method":"PUT","url":"DiagnosticReport/example"}}]}