{"resourceType":"Bundle","id":"tests-minimal-patient-example-bundle","type":"transaction","entry":[{"resource":{"resourceType":"Coverage","id":"minimal-coverage-example","meta":{"profile":["http://hl7.org/fhir/us/qicore/StructureDefinition/qicore-coverage"]},"identifier":[{"type":{"coding":[{"system":"http://terminology.hl7.org/CodeSystem/v2-0203","code":"MB"}]},"system":"http://example.org/identifiers/member","value":"23456"},{"type":{"coding":[{"system":"http://terminology.hl7.org/CodeSystem/v2-0203","code":"SN"}]},"system":"http://example.org/identifiers/subscriber","value":"34567"}],"status":"active","policyHolder":{"reference":"Patient/minimal-patient-example"},"subscriber":{"reference":"Patient/minimal-patient-example"},"beneficiary":{"reference":"Patient/minimal-patient-example"},"payor":[{"reference":"Organization/minimal-organization-example"}]},"request":{"method":"PUT","url":"Coverage/minimal-coverage-example"}},{"resource":{"resourceType":"Patient","id":"minimal-patient-example","meta":{"profile":["http://hl7.org/fhir/us/core/StructureDefinition/us-core-patient","http://hl7.org/fhir/us/qicore/StructureDefinition/qicore-patient"]},"extension":[{"url":"http://hl7.org/fhir/us/core/StructureDefinition/us-core-birthsex","valueCode":"M"}],"identifier":[{"type":{"coding":[{"system":"http://terminology.hl7.org/CodeSystem/v2-0203","code":"MR"}]},"system":"urn:oid:1.2.36.146.595.217.0.1","value":"12345"}],"active":true,"name":[{"use":"official","family":"Chalmers","given":["Peter","James"]}],"telecom":[{"system":"phone","value":"(03) 5555 6473","use":"mobile","rank":1},{"system":"email","value":"peter.chalmers@example.org","use":"home","rank":2}],"gender":"male","birthDate":"1974-12-25","address":[{"use":"home","type":"both","text":"534 Erewhon St PeasantVille, Utah 84414","line":["534 Erewhon St"],"city":"PleasantVille","district":"Rainbow","state":"UT","postalCode":"84414","period":{"start":"1974-12-25"}}]},"request":{"method":"PUT","url":"Patient/minimal-patient-example"}},{"resource":{"resourceType":"Organization","id":"minimal-organization-example","meta":{"profile":["http://hl7.org/fhir/us/qicore/StructureDefinition/qicore-organization"]},"active":true,"name":"Example Organization"},"request":{"method":"PUT","url":"Organization/minimal-organization-example"}}]}