{"resourceType":"Bundle","id":"tests-GMTP-example-patient-1-bundle","type":"transaction","entry":[{"resource":{"resourceType":"Organization","id":"Organization-example-2-GMTP","meta":{"profile":["http://hl7.org/fhir/us/core/StructureDefinition/us-core-organization","http://hl7.org/fhir/us/qicore/StructureDefinition/qicore-organization"]},"identifier":[{"system":"http://hl7.org.fhir/sid/us-npi","value":"1407071236"},{"system":"http://example.org/fhir/sid/us-tin","value":"121111111"}],"active":true,"type":[{"coding":[{"system":"http://terminology.hl7.org/CodeSystem/organization-type","code":"prov","display":"Healthcare Provider"}]}],"name":"Acme Clinic","telecom":[{"system":"phone","value":"(+1) 734-677-7777"},{"system":"email","value":"customer-service@acme-clinic.org"}],"address":[{"line":["3300 Washtenaw Avenue, Suite 227"],"city":"Amherst","state":"MA","postalCode":"01002","country":"USA"}]},"request":{"method":"PUT","url":"Organization/Organization-example-2-GMTP"}},{"resource":{"resourceType":"Patient","id":"GMTP-example-patient-1","meta":{"profile":["http://hl7.org/fhir/us/core/StructureDefinition/us-core-patient","http://hl7.org/fhir/us/qicore/StructureDefinition/qicore-patient"]},"extension":[{"url":"http://hl7.org/fhir/us/core/StructureDefinition/us-core-race","extension":[{"url":"ombCategory","valueCoding":{"system":"urn:oid:2.16.840.1.113883.6.238","code":"2106-3","display":"White"}},{"url":"ombCategory","valueCoding":{"system":"urn:oid:2.16.840.1.113883.6.238","code":"1002-5","display":"American Indian or Alaska Native"}},{"url":"ombCategory","valueCoding":{"system":"urn:oid:2.16.840.1.113883.6.238","code":"2028-9","display":"Asian"}},{"url":"detailed","valueCoding":{"system":"urn:oid:2.16.840.1.113883.6.238","code":"1586-7","display":"Shoshone"}},{"url":"detailed","valueCoding":{"system":"urn:oid:2.16.840.1.113883.6.238","code":"2036-2","display":"Filipino"}},{"url":"detailed","valueCoding":{"system":"urn:oid:2.16.840.1.113883.6.238","code":"1735-0","display":"Alaska Native"}},{"url":"text","valueString":"Mixed"}]},{"url":"http://hl7.org/fhir/us/core/StructureDefinition/us-core-ethnicity","extension":[{"url":"ombCategory","valueCoding":{"system":"urn:oid:2.16.840.1.113883.6.238","code":"2135-2","display":"Hispanic or Latino"}},{"url":"detailed","valueCoding":{"system":"urn:oid:2.16.840.1.113883.6.238","code":"2184-0","display":"Dominican"}},{"url":"detailed","valueCoding":{"system":"urn:oid:2.16.840.1.113883.6.238","code":"2148-5","display":"Mexican"}},{"url":"text","valueString":"Hispanic or Latino"}]},{"url":"http://hl7.org/fhir/us/core/StructureDefinition/us-core-birthsex","valueCode":"M"}],"identifier":[{"use":"usual","type":{"coding":[{"system":"http://terminology.hl7.org/CodeSystem/v2-0203","code":"MR","display":"Medical Record Number"}]},"system":"urn:oid:1.2.36.146.595.217.0.1","value":"12345678","period":{"start":"2002-05-06"},"assigner":{"display":"Acme Healthcare"}}],"active":true,"name":[{"use":"official","family":"Chalmers","given":["Peter","James"]}],"telecom":[{"system":"phone","value":"(03) 5555 6473","use":"work","rank":1}],"gender":"male","birthDate":"1974-12-25","_birthDate":{"extension":[{"url":"http://hl7.org/fhir/StructureDefinition/patient-birthTime","valueDateTime":"1974-12-25T14:35:45-05:00"}]},"deceasedBoolean":false,"address":[{"use":"home","type":"both","text":"534 Erewhon St PeasantVille, Utah 84414","line":["534 Erewhon St"],"city":"PleasantVille","district":"Rainbow","state":"UT","postalCode":"84414","period":{"start":"1974-12-25"}}],"managingOrganization":{"reference":"Organization/Organization-example-1-GMTP"}},"request":{"method":"PUT","url":"Patient/GMTP-example-patient-1"}},{"resource":{"resourceType":"Practitioner","id":"Practitioner-example-GMTP","meta":{"profile":["http://hl7.org/fhir/us/core/StructureDefinition/us-core-practitioner","http://hl7.org/fhir/us/qicore/StructureDefinition/qicore-practitioner"]},"identifier":[{"system":"http://hl7.org/fhir/sid/us-npi'","value":"1245319599"},{"system":"http://www.acme.org/practitioners","value":"456789"}],"name":[{"family":"Kathy","given":["Fielding"],"prefix":["Dr"]}],"telecom":[{"system":"phone","value":"555-555-5672","use":"mobile"},{"system":"fax","value":"555-555-5672"}],"address":[{"use":"work","line":["1080 FIRST COLONIAL RD"],"city":"Virginia Beach","state":"VA","postalCode":"21454-2406"}]},"request":{"method":"PUT","url":"Practitioner/Practitioner-example-GMTP"}},{"resource":{"resourceType":"Encounter","id":"Encounter-example-1-GMTP","meta":{"profile":["http://hl7.org/fhir/us/qicore/StructureDefinition/qicore-encounter"]},"extension":[{"url":"http://hl7.org/fhir/us/qicore/StructureDefinition/qicore-encounter-procedure","extension":[{"url":"type","valueCodeableConcept":{"coding":[{"system":"http://snomed.info/sct","code":"80146002","display":"Excision of appendix (procedure)"}],"text":"Excision of appendix (procedure)"}},{"url":"rank","valuePositiveInt":1},{"url":"procedure","valueReference":{"reference":"Procedure/example"}}]}],"status":"finished","class":{"system":"http://terminology.hl7.org/CodeSystem/v3-ActCode","code":"IMP","display":"inpatient encounter"},"type":[{"coding":[{"system":"http://www.ama-assn.org/go/cpt","code":"99223","display":"Inpatient Hospital Care"}]}],"subject":{"reference":"Patient/GMTP-example-patient-1"},"diagnosis":[{"extension":[{"url":"http://hl7.org/fhir/us/qicore/StructureDefinition/qicore-encounter-diagnosisPresentOnAdmission","valueCodeableConcept":{"coding":[{"system":"http://terminology.hl7.org/CodeSystem/ex-diagnosis-on-admission","code":"y","display":"Yes"}]}}],"condition":{"reference":"Condition/appendicitis-GMTP-1"}}]},"request":{"method":"PUT","url":"Encounter/Encounter-example-1-GMTP"}},{"resource":{"resourceType":"ResearchStudy","id":"ResearchStudy-GMTP-1","identifier":[{"system":"https://clinicaltrials.gov","value":"NCT02326129"}],"title":"Clinical Study on Treatment X","status":"active","condition":[{"coding":[{"system":"http://snomed.info/sct","code":"74400008","display":"Appendicitis (disorder)"}]}],"period":{"start":"2023-11-01","end":"2025-11-30"},"sponsor":{"reference":"Organization/Organization-example-2-GMTP"}},"request":{"method":"PUT","url":"ResearchStudy/ResearchStudy-GMTP-1"}},{"resource":{"resourceType":"ResearchSubject","id":"ResearchSubject-GMTP-1","status":"on-study","study":{"reference":"ResearchStudy/ResearchStudy-GMTP-1"},"individual":{"reference":"Patient/GMTP-example-patient-1"}},"request":{"method":"PUT","url":"ResearchSubject/ResearchSubject-GMTP-1"}},{"resource":{"resourceType":"Condition","id":"appendicitis-GMTP-1","meta":{"profile":["http://hl7.org/fhir/us/qicore/StructureDefinition/qicore-condition","http://hl7.org/fhir/us/core/StructureDefinition/us-core-condition"]},"clinicalStatus":{"coding":[{"system":"http://terminology.hl7.org/CodeSystem/condition-clinical","code":"active"}]},"verificationStatus":{"coding":[{"system":"http://terminology.hl7.org/CodeSystem/condition-ver-status","code":"confirmed"}]},"category":[{"coding":[{"system":"http://terminology.hl7.org/CodeSystem/condition-category","code":"encounter-diagnosis","display":"Encounter Diagnosis"}]}],"code":{"coding":[{"system":"http://snomed.info/sct","code":"74400008","display":"Appendicitis (disorder)"}],"text":"Appendicitis"},"subject":{"reference":"Patient/GMTP-example-patient-1"},"encounter":{"reference":"Encounter/Encounter-example-1-GMTP"},"onsetDateTime":"2012-05-24T00:00:00+00:00","recordedDate":"2012-05-24T00:00:00+00:00"},"request":{"method":"PUT","url":"Condition/appendicitis-GMTP-1"}},{"resource":{"resourceType":"Coverage","id":"Coverage-example-GMTP","meta":{"profile":["http://hl7.org/fhir/us/qicore/StructureDefinition/qicore-coverage"]},"identifier":[{"system":"http://benefitsinc.com/certificate","value":"12345"},{"type":{"coding":[{"system":"http://terminology.hl7.org/CodeSystem/v2-0203","code":"MB"}]},"value":"member-id-from-identifier-GMTP-example-patient-1"}],"status":"active","type":{"coding":[{"system":"urn:oid:2.16.840.1.113883.3.221.5","code":"59","display":"Other Private Insurance"}]},"policyHolder":{"reference":"Patient/GMTP-example-patient-1"},"subscriber":{"reference":"Patient/GMTP-example-patient-1"},"beneficiary":{"reference":"Patient/GMTP-example-patient-1"},"payor":[{"reference":"Organization/Organization-example-1-GMTP"}]},"request":{"method":"PUT","url":"Coverage/Coverage-example-GMTP"}},{"resource":{"resourceType":"ServiceRequest","id":"ServiceRequest-example-1-GMTP","meta":{"profile":["http://hl7.org/fhir/us/qicore/StructureDefinition/qicore-servicerequest"]},"status":"completed","intent":"order","priority":"urgent","code":{"coding":[{"system":"http://snomed.info/sct","code":"80146002","display":"Excision of appendix (procedure)"}],"text":"Excision of appendix (procedure)"},"subject":{"reference":"Patient/GMTP-example-patient-1"},"encounter":{"reference":"Encounter/Encounter-example-1-GMTP"},"occurrenceDateTime":"2013-04-05","asNeededBoolean":true,"authoredOn":"2013-04-04","requester":{"reference":"Practitioner/Practitioner-example-GMTP"},"performer":[{"reference":"Organization/Organization-example-1-GMTP"}],"reasonCode":[{"coding":[{"system":"http://snomed.info/sct","code":"163220003","display":"On examination - abdominal pain - right iliac"}]}],"reasonReference":[{"reference":"Condition/appendicitis-GMTP-1"}],"insurance":[{"reference":"Coverage/Coverage-example-GMTP"}],"bodySite":[{"coding":[{"system":"http://snomed.info/sct","code":"66754008","display":"Appendix structure"}]}]},"request":{"method":"PUT","url":"ServiceRequest/ServiceRequest-example-1-GMTP"}},{"resource":{"resourceType":"Organization","id":"Organization-example-1-GMTP","meta":{"profile":["http://hl7.org/fhir/us/qicore/StructureDefinition/qicore-organization","http://hl7.org/fhir/us/core/StructureDefinition/us-core-organization"]},"identifier":[{"system":"http://hl7.org/fhir/sid/us-npi","value":"1144221849"}],"active":true,"type":[{"coding":[{"system":"http://terminology.hl7.org/CodeSystem/organization-type","code":"team","display":"Organizational team"}]}],"name":"Oak Street Billing Provider","telecom":[{"system":"phone","value":"+1 (123) 4567890","use":"mobile"},{"system":"fax","value":"+1 (123) 4567890"}],"address":[{"line":["456 Oak Street"],"city":"Anytown","state":"MA","postalCode":"54321","country":"USA"}]},"request":{"method":"PUT","url":"Organization/Organization-example-1-GMTP"}}]}